Folder: microplastic-classifier-labview/example raman data (part 2)

File: GM1_Fiber005.V3_Blue_140umx1.34um_40x_30sec.csv
340.52,4991
348.038,5071
355.545,5028
363.041,4858
370.528,4766
378.004,4815
385.47,4979
392.925,5193
400.371,4787
407.806,4662
415.231,4625
422.645,4596
430.05,4607
437.444,4515
444.829,4460
452.203,4499
459.567,4365
466.921,4450
474.265,4371
481.599,4408
488.923,4392
496.237,4271
503.541,4267
510.835,4291
518.119,4310
525.393,4227
532.657,4187
539.912,4086
547.156,4204
554.391,4050
561.616,4167
568.831,4101
576.036,4128
583.231,4103
590.417,4092
597.592,4104
604.758,4140
611.915,4058
619.061,4219
626.198,4224
633.326,4063
640.443,3923
647.551,3886
654.65,3907
661.738,3893
668.818,3808
675.887,3966
682.947,3783
689.998,3819
697.039,3827
704.07,3806
711.092,3798
718.105,3800
725.108,3747
732.102,3774
739.086,3656
746.061,3626
753.026,3786
759.982,3607
766.929,3612
773.866,3514
780.794,3512
787.713,3521
794.622,3459
801.523,3447
808.414,3373
815.295,3383
822.168,3449
829.031,3473
835.885,3456
842.73,3430
849.565,3370
856.392,3298
863.209,3228
870.018,3270
876.817,3217
883.607,3245
890.388,3153
897.16,3206
903.923,3122
910.677,3145
917.422,3193
924.158,3120
930.885,3183
937.603,3186
944.312,3192
951.012,3076
957.703,3088
964.385,3060
971.059,3082
977.723,3104
984.379,3029
991.026,3041
997.664,2993
1004.29,3009
1010.91,3015
1017.52,2962
1024.13,2958
1030.72,2954
1037.31,2955
1043.88,2928
1050.45,2939
1057.01,2902
1063.56,2882
1070.1,2892
1076.64,2859
1083.16,2851
1089.68,2862
1096.18,2817
1102.68,2843
1109.17,2814
1115.66,2803
1122.13,2836
1128.59,2854
1135.05,2808
1141.5,2782
1147.94,2736
1154.37,2738
1160.79,2718
1167.2,2785
1173.61,2754
1180,2756
1186.39,2694
1192.77,2700
1199.14,2690
1205.51,2673
1211.86,2629
1218.21,2691
1224.55,2660
1230.88,2581
1237.2,2563
1243.51,2620
1249.82,2598
1256.12,2608
1262.4,2610
1268.68,2559
1274.96,2593
1281.22,2568
1287.48,2599
1293.72,2670
1299.96,2724
1306.2,2662
1312.42,2594
1318.63,2576
1324.84,2529
1331.04,2495
1337.23,2489
1343.41,2476
1349.59,2476
1355.76,2453
1361.91,2404
1368.06,2432
1374.21,2409
1380.34,2474
1386.47,2450
1392.59,2412
1398.7,2406
1404.8,2379
1410.9,2379
1416.98,2348
1423.06,2532
1429.13,2325
1435.2,2349
1441.25,2287
1447.3,2259
1453.34,2298
1459.37,2181
1465.4,2255
1471.41,2176
1477.42,2158
1483.42,2070
1489.42,2056
1495.4,2044
1501.38,1979
1507.35,1967
1513.31,1956
1519.27,1923
1525.22,1963
1531.15,2004
1537.09,1885
1543.01,1828
1548.93,1796
1554.84,1830
1560.74,1830
1566.63,1766
1572.52,1730
1578.4,1725
1584.27,1699
1590.13,1673
1595.99,1669
1601.83,1651
1607.67,1627
1613.51,1608
1619.33,1592
1625.15,1550
1630.96,1595
1636.77,1726
1642.56,1660
1648.35,1552
1654.13,1560
1659.91,1481
1665.67,1490
1671.43,1483
1677.18,1534
1682.93,1791
1688.67,1675
1694.4,1552
1700.12,1424
1705.83,1413
1711.54,1373
1717.24,1339
1722.94,1329
1728.62,1325
1734.3,1301
1739.97,1267
1745.64,1252
1751.29,1291
1756.94,1283
1762.59,1271
1768.22,1323
1773.85,1359
1779.47,1261
1785.09,1252
1790.69,1239
1796.29,1236
1801.89,1215
1807.47,1238
1813.05,1201
1818.62,1199
1824.19,1222
1829.75,1206
1835.3,1207
1840.84,1199
1846.38,1206
1851.91,1231
1857.43,1200
1862.94,1180
1868.45,1224
1873.95,1210
1879.45,1227
1884.94,1227
1890.42,1197
1895.89,1166
1901.36,1196
1906.82,1231
1912.27,1246
1917.72,1217
1923.16,1175
1928.59,1221
1934.01,1262
1939.43,1227
1944.84,1251
1950.25,1245
1955.65,1242
1961.04,1207
1966.43,1234
1971.8,1250
1977.17,1249
1982.54,1264
1987.9,1250
1993.25,1231
1998.59,1243
2003.93,1278
2009.26,1264
2014.59,1255
2019.9,1271
2025.21,1289
2030.52,1294
2034.76,1272

File: GM1_Fiber005.V4_Blue_140umx1.34um_40x_300sec.csv
340.52,43336
348.038,44109
355.545,43685
363.041,42187
370.528,41344
378.004,41708
385.47,42908
392.925,44708
400.371,40216
407.806,39567
415.231,39425
422.645,38843
430.05,38759
437.444,38466
444.829,37724
452.203,37792
459.567,37738
466.921,37216
474.265,37296
481.599,36955
488.923,36805
496.237,36737
503.541,36483
510.835,36272
518.119,36001
525.393,35701
532.657,35235
539.912,35029
547.156,35051
554.391,34798
561.616,34641
568.831,34520
576.036,34589
583.231,34154
590.417,34207
597.592,33984
604.758,34374
611.915,34160
619.061,35630
626.198,36400
633.326,34089
640.443,32731
647.551,32781
654.65,32272
661.738,32140
668.818,32327
675.887,33359
682.947,31779
689.998,31603
697.039,32005
704.07,32240
711.092,31855
718.105,31879
725.108,31434
732.102,30769
739.086,30406
746.061,30566
753.026,30811
759.982,29911
766.929,29273
773.866,29005
780.794,28509
787.713,28689
794.622,28310
801.523,27973
808.414,28018
815.295,27692
822.168,27764
829.031,28170
835.885,28105
842.73,27793
849.565,27251
856.392,26957
863.209,26490
870.018,26689
876.817,26055
883.607,26172
890.388,25750
897.16,25568
903.923,25692
910.677,25019
917.422,25300
924.158,25378
930.885,25245
937.603,25300
944.312,25230
951.012,25072
957.703,25112
964.385,24633
971.059,24824
977.723,24416
984.379,24481
991.026,23975
997.664,23671
1004.29,23708
1010.91,23690
1017.52,23588
1024.13,23638
1030.72,23520
1037.31,23389
1043.88,23169
1050.45,22811
1057.01,22985
1063.56,22586
1070.1,22491
1076.64,22662
1083.16,22495
1089.68,22879
1096.18,22422
1102.68,22246
1109.17,22204
1115.66,22079
1122.13,21817
1128.59,22224
1135.05,21634
1141.5,21731
1147.94,21788
1154.37,21726
1160.79,21686
1167.2,21735
1173.61,21606
1180,21395
1186.39,21241
1192.77,21149
1199.14,21123
1205.51,20862
1211.86,20696
1218.21,20681
1224.55,20697
1230.88,20008
1237.2,19787
1243.51,19987
1249.82,20021
1256.12,20176
1262.4,20031
1268.68,19897
1274.96,19727
1281.22,19861
1287.48,20240
1293.72,20766
1299.96,21274
1306.2,20530
1312.42,20328
1318.63,20044
1324.84,19687
1331.04,19441
1337.23,19190
1343.41,18804
1349.59,18416
1355.76,18254
1361.91,18401
1368.06,18400
1374.21,18347
1380.34,18945
1386.47,18744
1392.59,18066
1398.7,17939
1404.8,17762
1410.9,17941
1416.98,17534
1423.06,19770
1429.13,17984
1435.2,17938
1441.25,17116
1447.3,17045
1453.34,16891
1459.37,16310
1465.4,16537
1471.41,15466
1477.42,15363
1483.42,15078
1489.42,14713
1495.4,14431
1501.38,14143
1507.35,14070
1513.31,13937
1519.27,13689
1525.22,13791
1531.15,14476
1537.09,13089
1543.01,12922
1548.93,12892
1554.84,12441
1560.74,12325
1566.63,11971
1572.52,12003
1578.4,11740
1584.27,11304
1590.13,11256
1595.99,10975
1601.83,10957
1607.67,11056
1613.51,10644
1619.33,10519
1625.15,10369
1630.96,10802
1636.77,11882
1642.56,11530
1648.35,10848
1654.13,10535
1659.91,9555
1665.67,9343
1671.43,9379
1677.18,9791
1682.93,12018
1688.67,11158
1694.4,10274
1700.12,9069
1705.83,8654
1711.54,8198
1717.24,8240
1722.94,7886
1728.62,7755
1734.3,7849
1739.97,7787
1745.64,7687
1751.29,7553
1756.94,7475
1762.59,7452
1768.22,8499
1773.85,8608
1779.47,7535
1785.09,7277
1790.69,7103
1796.29,7105
1801.89,7111
1807.47,7051
1813.05,6973
1818.62,7023
1824.19,6936
1829.75,6980
1835.3,6788
1840.84,6866
1846.38,6963
1851.91,6924
1857.43,6817
1862.94,6828
1868.45,6767
1873.95,6861
1879.45,6830
1884.94,6874
1890.42,6773
1895.89,6784
1901.36,6803
1906.82,6914
1912.27,6806
1917.72,7021
1923.16,6870
1928.59,6982
1934.01,7170
1939.43,7102
1944.84,7059
1950.25,6964
1955.65,7073
1961.04,7038
1966.43,7238
1971.8,7223
1977.17,7151
1982.54,7267
1987.9,7200
1993.25,7316
1998.59,7271
2003.93,7328
2009.26,7451
2014.59,7414
2019.9,7538
2025.21,7552
2030.52,7480
2034.76,7635

File: GM1_Fiber007.V1_Clear_220umx1.25um_40x_300sec.csv
340.52,61934
348.038,61470
355.545,61307
363.041,61196
370.528,60887
378.004,60932
385.47,61396
392.925,62336
400.371,59549
407.806,59200
415.231,58291
422.645,57741
430.05,57762
437.444,57233
444.829,56655
452.203,56349
459.567,55970
466.921,56202
474.265,55970
481.599,55309
488.923,55608
496.237,54570
503.541,54402
510.835,54166
518.119,53525
525.393,53180
532.657,52736
539.912,52778
547.156,52245
554.391,52717
561.616,52435
568.831,52023
576.036,51908
583.231,51783
590.417,51505
597.592,51192
604.758,51707
611.915,50855
619.061,50328
626.198,49683
633.326,49349
640.443,49097
647.551,49451
654.65,48950
661.738,48771
668.818,48277
675.887,47862
682.947,47729
689.998,47287
697.039,47195
704.07,47261
711.092,49274
718.105,47445
725.108,46479
732.102,45803
739.086,45598
746.061,45829
753.026,46947
759.982,45135
766.929,44525
773.866,44097
780.794,43421
787.713,43473
794.622,43089
801.523,42749
808.414,42477
815.295,42098
822.168,41895
829.031,41635
835.885,41401
842.73,40960
849.565,41058
856.392,40718
863.209,40700
870.018,40234
876.817,39844
883.607,39225
890.388,39405
897.16,38599
903.923,38805
910.677,38811
917.422,38728
924.158,38953
930.885,38874
937.603,38498
944.312,38146
951.012,38272
957.703,37869
964.385,37598
971.059,37863
977.723,37514
984.379,37459
991.026,37172
997.664,36780
1004.29,37233
1010.91,37002
1017.52,36025
1024.13,35914
1030.72,36020
1037.31,36019
1043.88,35734
1050.45,35426
1057.01,35097
1063.56,35225
1070.1,35107
1076.64,35144
1083.16,34841
1089.68,35386
1096.18,36886
1102.68,41652
1109.17,36425
1115.66,34563
1122.13,34018
1128.59,34407
1135.05,34325
1141.5,34029
1147.94,33688
1154.37,33504
1160.79,33132
1167.2,32759
1173.61,32751
1180,32423
1186.39,32332
1192.77,32495
1199.14,33794
1205.51,32184
1211.86,30812
1218.21,30620
1224.55,30616
1230.88,30242
1237.2,30250
1243.51,30094
1249.82,30139
1256.12,29713
1262.4,29852
1268.68,29964
1274.96,29798
1281.22,29468
1287.48,29423
1293.72,29425
1299.96,29773
1306.2,29361
1312.42,29254
1318.63,28978
1324.84,28820
1331.04,28768
1337.23,28929
1343.41,29017
1349.59,29217
1355.76,29140
1361.91,28190
1368.06,27729
1374.21,27391
1380.34,27054
1386.47,26192
1392.59,25547
1398.7,24932
1404.8,24503
1410.9,24557
1416.98,24141
1423.06,25300
1429.13,23676
1435.2,23673
1441.25,22935
1447.3,22620
1453.34,22498
1459.37,21722
1465.4,21436
1471.41,20783
1477.42,20388
1483.42,20311
1489.42,19780
1495.4,19262
1501.38,19254
1507.35,19264
1513.31,19473
1519.27,18289
1525.22,17576
1531.15,17735
1537.09,16803
1543.01,16181
1548.93,15802
1554.84,15283
1560.74,14731
1566.63,14430
1572.52,14102
1578.4,13876
1584.27,13443
1590.13,13004
1595.99,12598
1601.83,12404
1607.67,12222
1613.51,11865
1619.33,11523
1625.15,10980
1630.96,10759
1636.77,10468
1642.56,10160
1648.35,10036
1654.13,9595
1659.91,9418
1665.67,9169
1671.43,9085
1677.18,9370
1682.93,10709
1688.67,9877
1694.4,9317
1700.12,8607
1705.83,7984
1711.54,7679
1717.24,7403
1722.94,7199
1728.62,6943
1734.3,6850
1739.97,6728
1745.64,6616
1751.29,6414
1756.94,6323
1762.59,6165
1768.22,6367
1773.85,6876
1779.47,5985
1785.09,5870
1790.69,5683
1796.29,5664
1801.89,5551
1807.47,5486
1813.05,5410
1818.62,5319
1824.19,5327
1829.75,5276
1835.3,5188
1840.84,5179
1846.38,5132
1851.91,5104
1857.43,5077
1862.94,5088
1868.45,5014
1873.95,4984
1879.45,4995
1884.94,4975
1890.42,4947
1895.89,4910
1901.36,4844
1906.82,4894
1912.27,4952
1917.72,4972
1923.16,4999
1928.59,4900
1934.01,5018
1939.43,5119
1944.84,4954
1950.25,4992
1955.65,5016
1961.04,4979
1966.43,5074
1971.8,4977
1977.17,5031
1982.54,5022
1987.9,5040
1993.25,5056
1998.59,5119
2003.93,5126
2009.26,5112
2014.59,5223
2019.9,5111
2025.21,5138
2030.52,5246
2034.76,5315

File: GM4-Fiber001.v2-Black-5.5umx0.75um_4sec.csv
269.58,59840
277.181,59326
284.772,59124
292.352,59063
299.921,58918
307.48,59031
315.029,58684
322.567,59130
330.095,59276
337.613,59081
345.12,58837
352.617,58733
360.103,58689
367.579,58307
375.045,58393
382.5,57981
389.946,58027
397.381,57944
404.806,57978
412.22,57828
419.625,57993
427.019,57744
434.403,57300
441.777,57028
449.141,57081
456.495,56861
463.838,56907
471.172,57124
478.495,58225
485.809,60171
493.113,60140
500.406,57611
507.69,56945
514.963,56159
522.227,55871
529.481,55457
536.725,55275
543.959,55391
551.183,55424
558.397,54904
565.601,55112
572.796,54746
579.981,54514
587.156,54541
594.321,54201
601.477,54099
608.623,54232
615.759,53796
622.885,53425
630.002,53184
637.109,53316
644.206,53085
651.294,52919
658.372,52942
665.441,52549
672.5,52176
679.55,51878
686.589,51585
693.62,51117
700.641,50973
707.652,50696
714.654,50582
721.647,49952
728.63,49710
735.603,49827
742.567,49046
749.522,49592
756.468,49335
763.404,48814
770.33,48770
777.248,48369
784.156,48282
791.054,47960
797.944,47849
804.824,47415
811.695,47104
818.557,46782
825.409,46701
832.253,46542
839.087,46309
845.912,46370
852.728,46282
859.534,46189
866.332,45959
873.12,46076
879.9,45825
886.67,45802
893.431,45825
900.183,45704
906.927,45416
913.661,45584
920.386,44859
927.102,44701
933.809,44526
940.508,44122
947.197,44021
953.877,43877
960.549,43544
967.211,43462
973.865,43225
980.51,43177
987.146,42871
993.773,42849
1000.39,42785
1007,43033
1013.6,42856
1020.19,42627
1026.78,42039
1033.35,42033
1039.92,41615
1046.47,41641
1053.02,41479
1059.56,41056
1066.09,41079
1072.62,40811
1079.13,40762
1085.63,40522
1092.13,40416
1098.62,40303
1105.1,39980
1111.57,39804
1118.03,40299
1124.49,40929
1130.93,41144
1137.37,40891
1143.8,40192
1150.22,40245
1156.63,40413
1163.03,39500
1169.42,38403
1175.81,38085
1182.19,38750
1188.56,38489
1194.92,37868
1201.27,37866
1207.61,37200
1213.95,37360
1220.28,36905
1226.6,36309
1232.91,35803
1239.21,35640
1245.5,35156
1251.79,35020
1258.07,34610
1264.34,34551
1270.6,34459
1276.85,34818
1283.1,35302
1289.33,34758
1295.56,33410
1301.78,32605
1307.99,31897
1314.2,31371
1320.39,31375
1326.58,30680
1332.76,30182
1338.93,30309
1345.1,30284
1351.25,29544
1357.4,29047
1363.54,28409
1369.67,27656
1375.8,27033
1381.91,26285
1388.02,25644
1394.12,25046
1400.21,24433
1406.3,24140
1412.37,23739
1418.44,23166
1424.5,22510
1430.55,22037
1436.6,21059
1442.63,20667
1448.66,19832
1454.68,19152
1460.7,18646
1466.7,18222
1472.7,17521
1478.69,17337
1484.67,16742
1490.65,16339
1496.62,15774
1502.57,15174
1508.53,14580
1514.47,14147
1520.41,13558
1526.33,13010
1532.25,12619
1538.17,12144
1544.07,11620
1549.97,11350
1555.86,11020
1561.74,10612
1567.62,10297
1573.49,10023
1579.35,9597
1585.2,9202
1591.04,9004
1596.88,8316
1602.71,7866
1608.53,7442
1614.35,7017
1620.16,6734
1625.96,6393
1631.75,6135
1637.53,5931
1643.31,5572
1649.08,5219
1654.84,4984
1660.6,4890
1666.35,4578
1672.09,4406
1677.82,4283
1683.55,4054
1689.27,3792
1694.98,3600
1700.68,3434
1706.38,3359
1712.07,3271
1717.75,3130
1723.43,2978
1729.09,2770
1734.75,2725
1740.41,2631
1746.05,2519
1751.69,2441
1757.32,2377
1762.95,2271
1768.57,2216
1774.18,2174
1779.78,2112
1785.38,2018
1790.97,1945
1796.55,1919
1802.12,1885
1807.69,1896
1813.25,1834
1818.8,1785
1824.35,1743
1829.89,1734
1835.42,1650
1840.95,1647
1846.47,1656
1851.98,1635
1857.48,1594
1862.98,1570
1868.47,1526
1873.95,1505
1879.43,1530
1884.9,1493
1890.36,1516
1895.82,1465
1901.27,1470
1906.71,1458
1912.14,1465
1917.57,1436
1922.99,1464
1928.41,1430
1933.82,1405
1939.22,1427
1944.61,1433
1950,1403
1955.38,1400
1960.75,1367
1966.12,1374
1971.48,1363
1976.84,1355
1981.11,1408

File: GM4-Fiber001.v3-Black-5.5umx0.75um_3sec.csv
269.58,55697
277.181,55759
284.772,55158
292.352,55109
299.921,54772
307.48,55227
315.029,55480
322.567,55195
330.095,55446
337.613,55331
345.12,55015
352.617,54782
360.103,54608
367.579,54617
375.045,54510
382.5,54252
389.946,54508
397.381,54296
404.806,54530
412.22,54243
419.625,54089
427.019,53832
434.403,53617
441.777,53625
449.141,53093
456.495,53324
463.838,53156
471.172,53513
478.495,54580
485.809,56980
493.113,56655
500.406,53963
507.69,53333
514.963,52751
522.227,52365
529.481,51745
536.725,51443
543.959,51638
551.183,51514
558.397,51295
565.601,51300
572.796,51123
579.981,51154
587.156,50795
594.321,50489
601.477,50710
608.623,50752
615.759,50333
622.885,49958
630.002,49727
637.109,49613
644.206,49350
651.294,49400
658.372,48892
665.441,48684
672.5,48728
679.55,48506
686.589,48166
693.62,47655
700.641,47446
707.652,47292
714.654,47090
721.647,46596
728.63,46255
735.603,46015
742.567,46136
749.522,45837
756.468,45556
763.404,45474
770.33,45118
777.248,45288
784.156,44930
791.054,44276
797.944,44473
804.824,43897
811.695,43487
818.557,43429
825.409,43625
832.253,43360
839.087,43111
845.912,43432
852.728,43191
859.534,42872
866.332,42969
873.12,42739
879.9,42648
886.67,42825
893.431,42610
900.183,42571
906.927,42899
913.661,42332
920.386,41838
927.102,41774
933.809,41493
940.508,41657
947.197,41079
953.877,40797
960.549,40566
967.211,40530
973.865,40505
980.51,40486
987.146,40340
993.773,40279
1000.39,40152
1007,40605
1013.6,39966
1020.19,39720
1026.78,39483
1033.35,39562
1039.92,38994
1046.47,39199
1053.02,38851
1059.56,38617
1066.09,38568
1072.62,38517
1079.13,38218
1085.63,38381
1092.13,38095
1098.62,37928
1105.1,38021
1111.57,37779
1118.03,38228
1124.49,38947
1130.93,39047
1137.37,39229
1143.8,38614
1150.22,38538
1156.63,38888
1163.03,37626
1169.42,36205
1175.81,36154
1182.19,37097
1188.56,36734
1194.92,36215
1201.27,35887
1207.61,35770
1213.95,35520
1220.28,35425
1226.6,34518
1232.91,33838
1239.21,33928
1245.5,33569
1251.79,33201
1258.07,33009
1264.34,32768
1270.6,33260
1276.85,33714
1283.1,34012
1289.33,33650
1295.56,32273
1301.78,31021
1307.99,30812
1314.2,30441
1320.39,29804
1326.58,29432
1332.76,29076
1338.93,29217
1345.1,29167
1351.25,28520
1357.4,27755
1363.54,27390
1369.67,26734
1375.8,25719
1381.91,25129
1388.02,24760
1394.12,23987
1400.21,23412
1406.3,23120
1412.37,22950
1418.44,22341
1424.5,21657
1430.55,21141
1436.6,20278
1442.63,19397
1448.66,18888
1454.68,18272
1460.7,17821
1466.7,17389
1472.7,16928
1478.69,16501
1484.67,15866
1490.65,15399
1496.62,15151
1502.57,14622
1508.53,14104
1514.47,13503
1520.41,12979
1526.33,12521
1532.25,12195
1538.17,11715
1544.07,11088
1549.97,10878
1555.86,10526
1561.74,10171
1567.62,9945
1573.49,9758
1579.35,9353
1585.2,9079
1591.04,8662
1596.88,8022
1602.71,7669
1608.53,7107
1614.35,6876
1620.16,6587
1625.96,6126
1631.75,5756
1637.53,5664
1643.31,5355
1649.08,5034
1654.84,4866
1660.6,4617
1666.35,4423
1672.09,4239
1677.82,4046
1683.55,3888
1689.27,3614
1694.98,3520
1700.68,3344
1706.38,3259
1712.07,2998
1717.75,2964
1723.43,2813
1729.09,2743
1734.75,2635
1740.41,2550
1746.05,2454
1751.69,2352
1757.32,2312
1762.95,2228
1768.57,2168
1774.18,2097
1779.78,1990
1785.38,1965
1790.97,1957
1796.55,1866
1802.12,1782
1807.69,1808
1813.25,1772
1818.8,1725
1824.35,1697
1829.89,1638
1835.42,1626
1840.95,1584
1846.47,1588
1851.98,1546
1857.48,1504
1862.98,1534
1868.47,1447
1873.95,1449
1879.43,1461
1884.9,1458
1890.36,1393
1895.82,1427
1901.27,1398
1906.71,1410
1912.14,1385
1917.57,1382
1922.99,1339
1928.41,1367
1933.82,1396
1939.22,1345
1944.61,1364
1950,1322
1955.38,1317
1960.75,1349
1966.12,1314
1971.48,1334
1976.84,1267
1981.11,1322

File: GM4-Fiber001.v4-Black-5.5umx0.75um_10sec.csv
269.58,33728
277.181,34045
284.772,33787
292.352,33579
299.921,33503
307.48,33519
315.029,33148
322.567,33211
330.095,33233
337.613,33224
345.12,32901
352.617,32631
360.103,32694
367.579,32475
375.045,32388
382.5,32313
389.946,32272
397.381,32418
404.806,32466
412.22,32402
419.625,31986
427.019,31981
434.403,31936
441.777,31795
449.141,31662
456.495,31566
463.838,31727
471.172,31820
478.495,32115
485.809,33168
493.113,32695
500.406,32003
507.69,31582
514.963,31362
522.227,31409
529.481,31179
536.725,30809
543.959,30709
551.183,30882
558.397,30758
565.601,30676
572.796,30842
579.981,30592
587.156,30607
594.321,30566
601.477,30462
608.623,30158
615.759,30297
622.885,30090
630.002,29944
637.109,29765
644.206,29745
651.294,29813
658.372,29718
665.441,29364
672.5,29453
679.55,29196
686.589,29092
693.62,29319
700.641,28784
707.652,28616
714.654,28478
721.647,28290
728.63,28254
735.603,28196
742.567,27833
749.522,28089
756.468,27946
763.404,27805
770.33,27959
777.248,27767
784.156,27342
791.054,27468
797.944,27135
804.824,27140
811.695,27060
818.557,26864
825.409,26900
832.253,26895
839.087,26783
845.912,26747
852.728,26668
859.534,26720
866.332,26805
873.12,26663
879.9,26568
886.67,26639
893.431,26532
900.183,26592
906.927,26595
913.661,26476
920.386,26195
927.102,26234
933.809,26207
940.508,25903
947.197,25770
953.877,25880
960.549,25801
967.211,25693
973.865,25671
980.51,25579
987.146,25431
993.773,25556
1000.39,25493
1007,25846
1013.6,25518
1020.19,25367
1026.78,25362
1033.35,25159
1039.92,25155
1046.47,25020
1053.02,24917
1059.56,24736
1066.09,24857
1072.62,24544
1079.13,24772
1085.63,24648
1092.13,24699
1098.62,24617
1105.1,24563
1111.57,24613
1118.03,24427
1124.49,24925
1130.93,24812
1137.37,24876
1143.8,24722
1150.22,24654
1156.63,24547
1163.03,24388
1169.42,23596
1175.81,23894
1182.19,24107
1188.56,23716
1194.92,23589
1201.27,23360
1207.61,23292
1213.95,23233
1220.28,23261
1226.6,23067
1232.91,22735
1239.21,22675
1245.5,22633
1251.79,22274
1258.07,22142
1264.34,22130
1270.6,22130
1276.85,22346
1283.1,22430
1289.33,22255
1295.56,21695
1301.78,21199
1307.99,20762
1314.2,20329
1320.39,20367
1326.58,20240
1332.76,20052
1338.93,19952
1345.1,19701
1351.25,19394
1357.4,19120
1363.54,18767
1369.67,18488
1375.8,18278
1381.91,17684
1388.02,17351
1394.12,16822
1400.21,16600
1406.3,16420
1412.37,16219
1418.44,15782
1424.5,15339
1430.55,15012
1436.6,14663
1442.63,14231
1448.66,13843
1454.68,13560
1460.7,13104
1466.7,12828
1472.7,12526
1478.69,12292
1484.67,11864
1490.65,11440
1496.62,11280
1502.57,11016
1508.53,10574
1514.47,10271
1520.41,9900
1526.33,9597
1532.25,9173
1538.17,9022
1544.07,8764
1549.97,8479
1555.86,8195
1561.74,8018
1567.62,7699
1573.49,7636
1579.35,7278
1585.2,7056
1591.04,6847
1596.88,6369
1602.71,6154
1608.53,5972
1614.35,5727
1620.16,5555
1625.96,5283
1631.75,5071
1637.53,4907
1643.31,4613
1649.08,4328
1654.84,4271
1660.6,4145
1666.35,3983
1672.09,3827
1677.82,3714
1683.55,3535
1689.27,3451
1694.98,3350
1700.68,3280
1706.38,3127
1712.07,3094
1717.75,2985
1723.43,2870
1729.09,2699
1734.75,2711
1740.41,2636
1746.05,2537
1751.69,2550
1757.32,2455
1762.95,2446
1768.57,2355
1774.18,2272
1779.78,2267
1785.38,2239
1790.97,2180
1796.55,2144
1802.12,2124
1807.69,2103
1813.25,2094
1818.8,1994
1824.35,2015
1829.89,1999
1835.42,2007
1840.95,1991
1846.47,1962
1851.98,1922
1857.48,1865
1862.98,1930
1868.47,1910
1873.95,1863
1879.43,1864
1884.9,1896
1890.36,1872
1895.82,1884
1901.27,1852
1906.71,1833
1912.14,1855
1917.57,1872
1922.99,1857
1928.41,1867
1933.82,1840
1939.22,1891
1944.61,1837
1950,1847
1955.38,1819
1960.75,1871
1966.12,1919
1971.48,1856
1976.84,1865
1981.11,1873