Folder: microplastic-classifier-labview/example raman data

Note: README.md
# microplastic-classifier-labview
A Microplastic Identification tool for Raman spectral data with a GUI written in LabVIEW

File: GM1_Fiber002.V2_Black_C85umxD12.5_240sec.csv
340.52,12963
348.038,12542
355.545,12446
363.041,12248
370.528,12230
378.004,12352
385.47,13328
392.925,14914
400.371,11455
407.806,11274
415.231,11091
422.645,11015
430.05,11041
437.444,10921
444.829,10628
452.203,10547
459.567,10355
466.921,10366
474.265,10515
481.599,10240
488.923,10348
496.237,10106
503.541,10097
510.835,9903
518.119,9837
525.393,9908
532.657,9492
539.912,9575
547.156,9524
554.391,9563
561.616,9592
568.831,9569
576.036,9582
583.231,9715
590.417,9664
597.592,9478
604.758,9711
611.915,9236
619.061,9183
626.198,8916
633.326,8860
640.443,8745
647.551,8804
654.65,8547
661.738,8627
668.818,8610
675.887,8464
682.947,8572
689.998,8457
697.039,8450
704.07,8559
711.092,8480
718.105,8523
725.108,8528
732.102,8376
739.086,8253
746.061,8481
753.026,8350
759.982,8449
766.929,8240
773.866,8338
780.794,8408
787.713,8693
794.622,8784
801.523,8870
808.414,9018
815.295,8962
822.168,8979
829.031,9009
835.885,9000
842.73,9076
849.565,9092
856.392,9259
863.209,9261
870.018,9430
876.817,9549
883.607,9628
890.388,9708
897.16,9662
903.923,9902
910.677,10040
917.422,10362
924.158,10430
930.885,10514
937.603,10492
944.312,10456
951.012,10352
957.703,10183
964.385,9993
971.059,10000
977.723,9593
984.379,9509
991.026,9306
997.664,9117
1004.29,9047
1010.91,8950
1017.52,8670
1024.13,8624
1030.72,8750
1037.31,8712
1043.88,8729
1050.45,8560
1057.01,8644
1063.56,8701
1070.1,8910
1076.64,8956
1083.16,9030
1089.68,9159
1096.18,9134
1102.68,9335
1109.17,9393
1115.66,9576
1122.13,10012
1128.59,11142
1135.05,13390
1141.5,12058
1147.94,12201
1154.37,12674
1160.79,12090
1167.2,11087
1173.61,10176
1180,9561
1186.39,9411
1192.77,9759
1199.14,11670
1205.51,9666
1211.86,9011
1218.21,8780
1224.55,8700
1230.88,8643
1237.2,8830
1243.51,8884
1249.82,8637
1256.12,8699
1262.4,8814
1268.68,8762
1274.96,8657
1281.22,8736
1287.48,8808
1293.72,9103
1299.96,9425
1306.2,9303
1312.42,9320
1318.63,9430
1324.84,9471
1331.04,9715
1337.23,10000
1343.41,10118
1349.59,10305
1355.76,11310
1361.91,13339
1368.06,16564
1374.21,14989
1380.34,13542
1386.47,12345
1392.59,11171
1398.7,10291
1404.8,9783
1410.9,9623
1416.98,9443
1423.06,11134
1429.13,9588
1435.2,9516
1441.25,9090
1447.3,8963
1453.34,8870
1459.37,8406
1465.4,8736
1471.41,8145
1477.42,8185
1483.42,8526
1489.42,9144
1495.4,9992
1501.38,12468
1507.35,14200
1513.31,13112
1519.27,11962
1525.22,11317
1531.15,10488
1537.09,8683
1543.01,7806
1548.93,7369
1554.84,7093
1560.74,6871
1566.63,6706
1572.52,6713
1578.4,6652
1584.27,6438
1590.13,6369
1595.99,6261
1601.83,6346
1607.67,6408
1613.51,6158
1619.33,6087
1625.15,5956
1630.96,5871
1636.77,5926
1642.56,5840
1648.35,5818
1654.13,5840
1659.91,5811
1665.67,5922
1671.43,6097
1677.18,6423
1682.93,8379
1688.67,7481
1694.4,6794
1700.12,5951
1705.83,6210
1711.54,5482
1717.24,5335
1722.94,5316
1728.62,5187
1734.3,5290
1739.97,5243
1745.64,5164
1751.29,5187
1756.94,5125
1762.59,5196
1768.22,5369
1773.85,6120
1779.47,5221
1785.09,5103
1790.69,5098
1796.29,5078
1801.89,5032
1807.47,5023
1813.05,5022
1818.62,4963
1824.19,4951
1829.75,4977
1835.3,5022
1840.84,4975
1846.38,5003
1851.91,5068
1857.43,5000
1862.94,4847
1868.45,4941
1873.95,5038
1879.45,4967
1884.94,4974
1890.42,4931
1895.89,5034
1901.36,5072
1906.82,5112
1912.27,5056
1917.72,5114
1923.16,5059
1928.59,5143
1934.01,5252
1939.43,5254
1944.84,5263
1950.25,5201
1955.65,5247
1961.04,5213
1966.43,5204
1971.8,5373
1977.17,5309
1982.54,5286
1987.9,5446
1993.25,5339
1998.59,5422
2003.93,5311
2009.26,5408
2014.59,5362
2019.9,5428
2025.21,5480
2030.52,5515
2034.76,5648

File: GM1_Fiber002.V2_Black_C85umxD12.5_600sec.csv
340.52,38391
348.038,37828
355.545,38001
363.041,37979
370.528,37901
378.004,38373
385.47,41244
392.925,45336
400.371,37155
407.806,36425
415.231,35948
422.645,35735
430.05,35471
437.444,35141
444.829,34930
452.203,34443
459.567,34432
466.921,34216
474.265,34354
481.599,33998
488.923,34327
496.237,33863
503.541,33487
510.835,33280
518.119,32848
525.393,32943
532.657,32567
539.912,32383
547.156,32340
554.391,32409
561.616,32424
568.831,32156
576.036,32465
583.231,32642
590.417,32284
597.592,32006
604.758,32725
611.915,31499
619.061,31160
626.198,30811
633.326,30733
640.443,30441
647.551,31082
654.65,31821
661.738,30071
668.818,30214
675.887,29886
682.947,30006
689.998,29874
697.039,29834
704.07,29496
711.092,30021
718.105,29523
725.108,29309
732.102,29124
739.086,29105
746.061,29312
753.026,29352
759.982,28924
766.929,28771
773.866,28198
780.794,27891
787.713,28030
794.622,27873
801.523,27832
808.414,27854
815.295,27529
822.168,27590
829.031,27359
835.885,27215
842.73,27209
849.565,26937
856.392,26941
863.209,26815
870.018,26659
876.817,26589
883.607,26942
890.388,26423
897.16,25916
903.923,26149
910.677,25889
917.422,26402
924.158,25907
930.885,26100
937.603,25990
944.312,25958
951.012,25753
957.703,25702
964.385,25424
971.059,25673
977.723,25208
984.379,25109
991.026,25045
997.664,24760
1004.29,24743
1010.91,24643
1017.52,24187
1024.13,24539
1030.72,25154
1037.31,24746
1043.88,24403
1050.45,24246
1057.01,24123
1063.56,24118
1070.1,24121
1076.64,24172
1083.16,24184
1089.68,24057
1096.18,24332
1102.68,24799
1109.17,24264
1115.66,23712
1122.13,23847
1128.59,24528
1135.05,24783
1141.5,23884
1147.94,25014
1154.37,24378
1160.79,23914
1167.2,23799
1173.61,23605
1180,23400
1186.39,23143
1192.77,22960
1199.14,23074
1205.51,22700
1211.86,22845
1218.21,22749
1224.55,22838
1230.88,22495
1237.2,22414
1243.51,22527
1249.82,22802
1256.12,22713
1262.4,28952
1268.68,22816
1274.96,22833
1281.22,23001
1287.48,23296
1293.72,23369
1299.96,24272
1306.2,23817
1312.42,24058
1318.63,23506
1324.84,23487
1331.04,23274
1337.23,23625
1343.41,23280
1349.59,23081
1355.76,23262
1361.91,23302
1368.06,23638
1374.21,23678
1380.34,23259
1386.47,23213
1392.59,22934
1398.7,22851
1404.8,22675
1410.9,22752
1416.98,22421
1423.06,27000
1429.13,23042
1435.2,22486
1441.25,21941
1447.3,22336
1453.34,22247
1459.37,21336
1465.4,22042
1471.41,20541
1477.42,19835
1483.42,19734
1489.42,19515
1495.4,19544
1501.38,19537
1507.35,19644
1513.31,19437
1519.27,19187
1525.22,19083
1531.15,20026
1537.09,17987
1543.01,17575
1548.93,17448
1554.84,17198
1560.74,17096
1566.63,16584
1572.52,16901
1578.4,16713
1584.27,16248
1590.13,16132
1595.99,15954
1601.83,16079
1607.67,16353
1613.51,15801
1619.33,15367
1625.15,15199
1630.96,15128
1636.77,14772
1642.56,15102
1648.35,14627
1654.13,14665
1659.91,14669
1665.67,14975
1671.43,15284
1677.18,16211
1682.93,20803
1688.67,19036
1694.4,17146
1700.12,15016
1705.83,14347
1711.54,13873
1717.24,13596
1722.94,13354
1728.62,13348
1734.3,13305
1739.97,13062
1745.64,13020
1751.29,13020
1756.94,12906
1762.59,12946
1768.22,13582
1773.85,15433
1779.47,13184
1785.09,12734
1790.69,12606
1796.29,12522
1801.89,12682
1807.47,12517
1813.05,12536
1818.62,12399
1824.19,12313
1829.75,12434
1835.3,12574
1840.84,12408
1846.38,12400
1851.91,12446
1857.43,12378
1862.94,12159
1868.45,12207
1873.95,12387
1879.45,12491
1884.94,12413
1890.42,12366
1895.89,12387
1901.36,12578
1906.82,12600
1912.27,12610
1917.72,12779
1923.16,12634
1928.59,12664
1934.01,13144
1939.43,13094
1944.84,12963
1950.25,12915
1955.65,12996
1961.04,12875
1966.43,12929
1971.8,13146
1977.17,13094
1982.54,13247
1987.9,13345
1993.25,13334
1998.59,13408
2003.93,13418
2009.26,13561
2014.59,13698
2019.9,13791
2025.21,13783
2030.52,13998
2034.76,13895

File: GM1_Fiber002.V3_Black_C85umxD12.5_600sec.csv
340.52,27433
348.038,26738
355.545,26559
363.041,26084
370.528,26301
378.004,26580
385.47,29042
392.925,33094
400.371,24575
407.806,23762
415.231,23626
422.645,23616
430.05,23175
437.444,22955
444.829,22531
452.203,22316
459.567,21853
466.921,22743
474.265,22072
481.599,22021
488.923,21900
496.237,21533
503.541,21273
510.835,21176
518.119,30084
525.393,20754
532.657,20571
539.912,20495
547.156,20360
554.391,21122
561.616,20500
568.831,20411
576.036,20308
583.231,20367
590.417,20176
597.592,20546
604.758,20852
611.915,19668
619.061,19395
626.198,18883
633.326,18878
640.443,18663
647.551,18754
654.65,18362
661.738,18079
668.818,18176
675.887,18151
682.947,18274
689.998,18313
697.039,18092
704.07,18083
711.092,18287
718.105,18069
725.108,18139
732.102,17945
739.086,17800
746.061,18090
753.026,18216
759.982,18199
766.929,18073
773.866,18030
780.794,18214
787.713,18781
794.622,18967
801.523,19001
808.414,19302
815.295,19013
822.168,19433
829.031,19368
835.885,19474
842.73,19522
849.565,19687
856.392,19715
863.209,20100
870.018,20500
876.817,20727
883.607,20903
890.388,20868
897.16,20753
903.923,21294
910.677,21613
917.422,22496
924.158,22375
930.885,22698
937.603,22878
944.312,22566
951.012,22407
957.703,22255
964.385,21873
971.059,21540
977.723,20907
984.379,20738
991.026,20179
997.664,19846
1004.29,19627
1010.91,19201
1017.52,18957
1024.13,18950
1030.72,19253
1037.31,19181
1043.88,19057
1050.45,18956
1057.01,19095
1063.56,19001
1070.1,19203
1076.64,19670
1083.16,19884
1089.68,19961
1096.18,20158
1102.68,20306
1109.17,20558
1115.66,21015
1122.13,22000
1128.59,25138
1135.05,31034
1141.5,26847
1147.94,26929
1154.37,27683
1160.79,26637
1167.2,24261
1173.61,22247
1180,21367
1186.39,21327
1192.77,22642
1199.14,27398
1205.51,22152
1211.86,19965
1218.21,19768
1224.55,19576
1230.88,19564
1237.2,19680
1243.51,20003
1249.82,19531
1256.12,19554
1262.4,19764
1268.68,19659
1274.96,19502
1281.22,19724
1287.48,20203
1293.72,20232
1299.96,21439
1306.2,21226
1312.42,21404
1318.63,21398
1324.84,21752
1331.04,22216
1337.23,22741
1343.41,23198
1349.59,23420
1355.76,25662
1361.91,30756
1368.06,39217
1374.21,33512
1380.34,30594
1386.47,27809
1392.59,25278
1398.7,23395
1404.8,22287
1410.9,22136
1416.98,21970
1423.06,26258
1429.13,22460
1435.2,22000
1441.25,21243
1447.3,20761
1453.34,20976
1459.37,19545
1465.4,20430
1471.41,19094
1477.42,19154
1483.42,20047
1489.42,21793
1495.4,23247
1501.38,28603
1507.35,32691
1513.31,29952
1519.27,27647
1525.22,26091
1531.15,24674
1537.09,20239
1543.01,18280
1548.93,17200
1554.84,16576
1560.74,15970
1566.63,15823
1572.52,15848
1578.4,15760
1584.27,15275
1590.13,15000
1595.99,14904
1601.83,15159
1607.67,15291
1613.51,14636
1619.33,14466
1625.15,14224
1630.96,14069
1636.77,14134
1642.56,13771
1648.35,13849
1654.13,13859
1659.91,14027
1665.67,14034
1671.43,14397
1677.18,15542
1682.93,19841
1688.67,18266
1694.4,16594
1700.12,14455
1705.83,13770
1711.54,13216
1717.24,12857
1722.94,12550
1728.62,12601
1734.3,12607
1739.97,12361
1745.64,12208
1751.29,12344
1756.94,12214
1762.59,12418
1768.22,13006
1773.85,14907
1779.47,12568
1785.09,12209
1790.69,12212
1796.29,11961
1801.89,11944
1807.47,12009
1813.05,12098
1818.62,11849
1824.19,11935
1829.75,11967
1835.3,12016
1840.84,11900
1846.38,11926
1851.91,12088
1857.43,11902
1862.94,11822
1868.45,11866
1873.95,11963
1879.45,11909
1884.94,12005
1890.42,12085
1895.89,12128
1901.36,11974
1906.82,12104
1912.27,12130
1917.72,12263
1923.16,12380
1928.59,12307
1934.01,12568
1939.43,12679
1944.84,12520
1950.25,12630
1955.65,12467
1961.04,12547
1966.43,12640
1971.8,12612
1977.17,12688
1982.54,12919
1987.9,12828
1993.25,12884
1998.59,12848
2003.93,12921
2009.26,13211
2014.59,13346
2019.9,13280
2025.21,13323
2030.52,13390
2034.76,13584

File: GM1_Fiber002.V5.10x_Black_C85umxD12.5_30sec.csv
269.58,25822
277.181,25846
284.772,25596
292.352,25378
299.921,25380
307.48,25212
315.029,25561
322.567,25504
330.095,25302
337.613,25055
345.12,24972
352.617,24716
360.103,24740
367.579,24339
375.045,24136
382.5,23980
389.946,24182
397.381,23984
404.806,23911
412.22,23678
419.625,23506
427.019,23652
434.403,23384
441.777,23349
449.141,23209
456.495,23130
463.838,22923
471.172,23024
478.495,22969
485.809,22763
493.113,22651
500.406,22736
507.69,22545
514.963,22306
522.227,22155
529.481,22092
536.725,21933
543.959,21936
551.183,21847
558.397,21795
565.601,21656
572.796,21578
579.981,21273
587.156,21284
594.321,20990
601.477,21141
608.623,20852
615.759,20751
622.885,20647
630.002,20728
637.109,20620
644.206,20318
651.294,20407
658.372,20035
665.441,20155
672.5,20114
679.55,20028
686.589,19658
693.62,19469
700.641,19393
707.652,19124
714.654,19161
721.647,18839
728.63,18775
735.603,18878
742.567,18675
749.522,18499
756.468,18395
763.404,18448
770.33,18180
777.248,17975
784.156,18069
791.054,17900
797.944,17847
804.824,17656
811.695,17471
818.557,17289
825.409,17287
832.253,17222
839.087,17160
845.912,17262
852.728,17084
859.534,17040
866.332,16968
873.12,16853
879.9,16824
886.67,16863
893.431,16860
900.183,16825
906.927,16943
913.661,16518
920.386,16577
927.102,16412
933.809,16452
940.508,16277
947.197,16267
953.877,16138
960.549,16147
967.211,16097
973.865,15958
980.51,15981
987.146,15923
993.773,15781
1000.39,15950
1007,15796
1013.6,15884
1020.19,16010
1026.78,16288
1033.35,15808
1039.92,15668
1046.47,15655
1053.02,15599
1059.56,15555
1066.09,15623
1072.62,15215
1079.13,15300
1085.63,15408
1092.13,15239
1098.62,14935
1105.1,15109
1111.57,14889
1118.03,14944
1124.49,14870
1130.93,14893
1137.37,14826
1143.8,14518
1150.22,14566
1156.63,14711
1163.03,14638
1169.42,14514
1175.81,14320
1182.19,14398
1188.56,14381
1194.92,14283
1201.27,14304
1207.61,14316
1213.95,14373
1220.28,14370
1226.6,14470
1232.91,14192
1239.21,14458
1245.5,14452
1251.79,14218
1258.07,14298
1264.34,14364
1270.6,14347
1276.85,13978
1283.1,14238
1289.33,14068
1295.56,14161
1301.78,14093
1307.99,14118
1314.2,13946
1320.39,13905
1326.58,14006
1332.76,13786
1338.93,13769
1345.1,13732
1351.25,13576
1357.4,13690
1363.54,13695
1369.67,13519
1375.8,13448
1381.91,13423
1388.02,13215
1394.12,13282
1400.21,13136
1406.3,13226
1412.37,13024
1418.44,12983
1424.5,12957
1430.55,12927
1436.6,12925
1442.63,12762
1448.66,12676
1454.68,12449
1460.7,12418
1466.7,12438
1472.7,12291
1478.69,12498
1484.67,12253
1490.65,12254
1496.62,12061
1502.57,12112
1508.53,11900
1514.47,12080
1520.41,11872
1526.33,11892
1532.25,11848
1538.17,11540
1544.07,11700
1549.97,11496
1555.86,11577
1561.74,11349
1567.62,11341
1573.49,11508
1579.35,11238
1585.2,11077
1591.04,11169
1596.88,10979
1602.71,11094
1608.53,10979
1614.35,10777
1620.16,11122
1625.96,11092
1631.75,10978
1637.53,10868
1643.31,10621
1649.08,10417
1654.84,10382
1660.6,10336
1666.35,10333
1672.09,10306
1677.82,10257
1683.55,10135
1689.27,10012
1694.98,9934
1700.68,9857
1706.38,9851
1712.07,9776
1717.75,9821
1723.43,9502
1729.09,9539
1734.75,9480
1740.41,9512
1746.05,9451
1751.69,9316
1757.32,9301
1762.95,9347
1768.57,9154
1774.18,9058
1779.78,8972
1785.38,9052
1790.97,8877
1796.55,8770
1802.12,8687
1807.69,8779
1813.25,8706
1818.8,8669
1824.35,8405
1829.89,8383
1835.42,8323
1840.95,8232
1846.47,8258
1851.98,8227
1857.48,8096
1862.98,8057
1868.47,7864
1873.95,8054
1879.43,7986
1884.9,7992
1890.36,7859
1895.82,7843
1901.27,7663
1906.71,7676
1912.14,7522
1917.57,7474
1922.99,7425
1928.41,7349
1933.82,7382
1939.22,7142
1944.61,7253
1950,7009
1955.38,7103
1960.75,7021
1966.12,6903
1971.48,6943
1976.84,6823
1981.11,6774

File: GM1_Fiber002.V6_Black_C85umxD12.5_18sec.csv
269.58,50817
277.181,50548
284.772,50304
292.352,50252
299.921,49972
307.48,49797
315.029,49906
322.567,49895
330.095,49645
337.613,49344
345.12,49276
352.617,48911
360.103,49077
367.579,48390
375.045,48466
382.5,48075
389.946,48175
397.381,47834
404.806,47581
412.22,47604
419.625,47134
427.019,47209
434.403,46821
441.777,46472
449.141,46624
456.495,46395
463.838,46328
471.172,46287
478.495,46237
485.809,45951
493.113,45772
500.406,45764
507.69,45405
514.963,45244
522.227,45017
529.481,44767
536.725,44475
543.959,44367
551.183,44163
558.397,43775
565.601,43836
572.796,43846
579.981,43809
587.156,43468
594.321,43136
601.477,42893
608.623,42772
615.759,42402
622.885,42467
630.002,42371
637.109,42732
644.206,41656
651.294,41760
658.372,41245
665.441,41384
672.5,41579
679.55,41047
686.589,40539
693.62,40290
700.641,39884
707.652,39716
714.654,39361
721.647,38908
728.63,38778
735.603,38602
742.567,38140
749.522,38325
756.468,37908
763.404,37725
770.33,37694
777.248,37444
784.156,37214
791.054,36998
797.944,36928
804.824,36317
811.695,36023
818.557,36155
825.409,35940
832.253,35797
839.087,35635
845.912,35307
852.728,35656
859.534,35485
866.332,35434
873.12,35245
879.9,35155
886.67,34940
893.431,34663
900.183,34747
906.927,34690
913.661,34480
920.386,34213
927.102,34182
933.809,33819
940.508,33572
947.197,33636
953.877,33380
960.549,33376
967.211,33124
973.865,33171
980.51,32998
987.146,32773
993.773,32651
1000.39,32679
1007,32538
1013.6,32474
1020.19,33206
1026.78,34531
1033.35,33569
1039.92,32054
1046.47,31525
1053.02,31477
1059.56,31442
1066.09,31291
1072.62,30987
1079.13,30809
1085.63,30680
1092.13,30357
1098.62,30005
1105.1,30133
1111.57,29964
1118.03,29587
1124.49,29393
1130.93,29141
1137.37,28918
1143.8,28981
1150.22,28590
1156.63,28561
1163.03,28401
1169.42,27802
1175.81,27883
1182.19,27881
1188.56,27537
1194.92,27516
1201.27,27338
1207.61,27542
1213.95,27340
1220.28,27101
1226.6,26955
1232.91,26786
1239.21,26732
1245.5,26748
1251.79,26302
1258.07,26311
1264.34,25943
1270.6,25977
1276.85,25812
1283.1,25395
1289.33,25096
1295.56,24847
1301.78,24563
1307.99,24123
1314.2,23520
1320.39,23379
1326.58,23133
1332.76,22719
1338.93,22333
1345.1,22031
1351.25,21680
1357.4,21344
1363.54,21007
1369.67,20759
1375.8,20473
1381.91,19988
1388.02,19727
1394.12,19372
1400.21,18667
1406.3,18541
1412.37,17935
1418.44,17677
1424.5,17226
1430.55,17034
1436.6,16631
1442.63,16346
1448.66,15767
1454.68,15236
1460.7,15102
1466.7,14355
1472.7,14057
1478.69,13758
1484.67,13365
1490.65,12933
1496.62,12532
1502.57,12095
1508.53,11973
1514.47,11456
1520.41,11056
1526.33,10843
1532.25,10393
1538.17,10149
1544.07,9673
1549.97,9422
1555.86,9142
1561.74,8731
1567.62,8519
1573.49,8180
1579.35,7836
1585.2,7592
1591.04,7250
1596.88,7079
1602.71,6852
1608.53,6571
1614.35,6323
1620.16,6141
1625.96,6010
1631.75,5761
1637.53,5642
1643.31,5243
1649.08,5130
1654.84,4908
1660.6,4738
1666.35,4556
1672.09,4354
1677.82,4372
1683.55,4119
1689.27,3995
1694.98,3865
1700.68,3764
1706.38,3717
1712.07,3568
1717.75,3532
1723.43,3347
1729.09,3302
1734.75,3209
1740.41,3143
1746.05,3060
1751.69,3057
1757.32,2986
1762.95,2918
1768.57,2856
1774.18,2743
1779.78,2749
1785.38,2715
1790.97,2726
1796.55,2601
1802.12,2567
1807.69,2630
1813.25,2554
1818.8,2595
1824.35,2529
1829.89,2583
1835.42,2489
1840.95,2550
1846.47,2442
1851.98,2446
1857.48,2471
1862.98,2430
1868.47,2439
1873.95,2363
1879.43,2381
1884.9,2437
1890.36,2432
1895.82,2408
1901.27,2387
1906.71,2440
1912.14,2422
1917.57,2418
1922.99,2410
1928.41,2430
1933.82,2404
1939.22,2418
1944.61,2475
1950,2368
1955.38,2470
1960.75,2478
1966.12,2397
1971.48,2477
1976.84,2432
1981.11,2397

File: GM1_Fiber005.V2_Blue_140umx1.34um_40x_18sec.csv
340.52,65535
348.038,65535
355.545,65535
363.041,65535
370.528,65535
378.004,65535
385.47,65535
392.925,65535
400.371,65317
407.806,65535
415.231,65535
422.645,65535
430.05,65535
437.444,65524
444.829,64487
452.203,64556
459.567,64620
466.921,64712
474.265,64858
481.599,63717
488.923,64647
496.237,64477
503.541,65114
510.835,64945
518.119,64137
525.393,64469
532.657,63941
539.912,63303
547.156,64612
554.391,64881
561.616,65268
568.831,64420
576.036,63597
583.231,64230
590.417,64509
597.592,64200
604.758,63807
611.915,63610
619.061,63943
626.198,63042
633.326,63079
640.443,62577
647.551,64229
654.65,63300
661.738,64036
668.818,62396
675.887,62779
682.947,61779
689.998,62708
697.039,62508
704.07,61477
711.092,60956
718.105,60738
725.108,61568
732.102,61427
739.086,60596
746.061,60909
753.026,59990
759.982,60988
766.929,59531
773.866,60143
780.794,60273
787.713,60060
794.622,59581
801.523,59702
808.414,58902
815.295,57767
822.168,58567
829.031,59578
835.885,58784
842.73,58646
849.565,58486
856.392,58255
863.209,57778
870.018,57664
876.817,57517
883.607,57638
890.388,57107
897.16,57045
903.923,57146
910.677,56193
917.422,56909
924.158,57101
930.885,57886
937.603,57839
944.312,57551
951.012,56733
957.703,57101
964.385,55728
971.059,55609
977.723,56167
984.379,55406
991.026,54891
997.664,54626
1004.29,55816
1010.91,55418
1017.52,55312
1024.13,55113
1030.72,55462
1037.31,55142
1043.88,55045
1050.45,54699
1057.01,55143
1063.56,56032
1070.1,56028
1076.64,55083
1083.16,54393
1089.68,53592
1096.18,52981
1102.68,52736
1109.17,52963
1115.66,52822
1122.13,52834
1128.59,53093
1135.05,51807
1141.5,52203
1147.94,51820
1154.37,51781
1160.79,51239
1167.2,50756
1173.61,50157
1180,50505
1186.39,50290
1192.77,50069
1199.14,49939
1205.51,49277
1211.86,48293
1218.21,47853
1224.55,48043
1230.88,48096
1237.2,47457
1243.51,47641
1249.82,47338
1256.12,47920
1262.4,48136
1268.68,47169
1274.96,46937
1281.22,45739
1287.48,45827
1293.72,46245
1299.96,45893
1306.2,45456
1312.42,44576
1318.63,44590
1324.84,44673
1331.04,43797
1337.23,43708
1343.41,43885
1349.59,42643
1355.76,41544
1361.91,41398
1368.06,41542
1374.21,40855
1380.34,40728
1386.47,40077
1392.59,39401
1398.7,38741
1404.8,39095
1410.9,38223
1416.98,37384
1423.06,36274
1429.13,35892
1435.2,35978
1441.25,35011
1447.3,34393
1453.34,34075
1459.37,33535
1465.4,32756
1471.41,32484
1477.42,31889
1483.42,30403
1489.42,29535
1495.4,29145
1501.38,28055
1507.35,27804
1513.31,26983
1519.27,26465
1525.22,25947
1531.15,25325
1537.09,24290
1543.01,23846
1548.93,23238
1554.84,22619
1560.74,21550
1566.63,20960
1572.52,20365
1578.4,20144
1584.27,18994
1590.13,18268
1595.99,17199
1601.83,16896
1607.67,16497
1613.51,15883
1619.33,15020
1625.15,14508
1630.96,13811
1636.77,13638
1642.56,12526
1648.35,12338
1654.13,11627
1659.91,11101
1665.67,10470
1671.43,10104
1677.18,10032
1682.93,9643
1688.67,9257
1694.4,8551
1700.12,8138
1705.83,7744
1711.54,7410
1717.24,6986
1722.94,6725
1728.62,6289
1734.3,6001
1739.97,5794
1745.64,5571
1751.29,5358
1756.94,4994
1762.59,4767
1768.22,4582
1773.85,4391
1779.47,4103
1785.09,3906
1790.69,3815
1796.29,3555
1801.89,3451
1807.47,3463
1813.05,3235
1818.62,3068
1824.19,2967
1829.75,2857
1835.3,2856
1840.84,2718
1846.38,2655
1851.91,2597
1857.43,2496
1862.94,2377
1868.45,2367
1873.95,2287
1879.45,2231
1884.94,2230
1890.42,2079
1895.89,2083
1901.36,2021
1906.82,2051
1912.27,1967
1917.72,1975
1923.16,2002
1928.59,1909
1934.01,1951
1939.43,1830
1944.84,1814
1950.25,1750
1955.65,1799
1961.04,1812
1966.43,1776
1971.8,1713
1977.17,1712
1982.54,1730
1987.9,1739
1993.25,1692
1998.59,1669
2003.93,1673
2009.26,1635
2014.59,1635
2019.9,1612
2025.21,1651
2030.52,1614
2034.76,1590